{
  "resourceType": "Bundle",
  "id": "79c439a6-596b-49a8-9a05-4437ba824540",
  "type": "collection",
  "timestamp": "2019-10-30T12:07:48.830744-07:00",
  "entry": [
    {
      "resource": {
        "resourceType": "Patient",
        "identifier": [
          {
            "system": "https://seattleflu.org/individual",
            "value": "5ce1ab712df4a18b11e27d66b3a39b49e8065e87f9958c42bb8cb3f28edc8b6c"
          }
        ],
        "gender": "female"
      },
      "fullUrl": "urn:uuid:ef344a3a-930f-4087-93c9-d275246e3b2e"
    },
    {
      "resource": {
        "resourceType": "Encounter",
        "identifier": [
          {
            "system": "https://seattleflu.org/encounter",
            "value": "https://redcap.iths.org//17561/1"
          }
        ],
        "class": {
          "system": "http://terminology.hl7.org/CodeSystem/v3-ActCode",
          "code": "HH"
        },
        "status": "finished",
        "period": {
          "start": "2019-10-01T12:17:00-07:00"
        },
        "subject": {
          "type": "Patient",
          "reference": "urn:uuid:ef344a3a-930f-4087-93c9-d275246e3b2e"
        },
        "location": [
          {
            "location": {
              "type": "Location",
              "reference": "urn:uuid:b511d8b6-0a9e-4edc-aad0-0c7e8c0e2b97"
            }
          },
          {
            "location": {
              "type": "Location",
              "reference": "urn:uuid:26f08b65-9503-40d9-84d4-23a1c3f70d56"
            }
          }
        ],
        "contained": [
          {
            "resourceType": "Condition",
            "id": "feelingFeverish",
            "code": {
              "coding": [
                {
                  "system": "https://seattleflu.org/symptom",
                  "code": "feelingFeverish"
                }
              ]
            },
            "onsetDateTime": "2019-09-28T00:00:00-07:00",
            "subject": {
              "type": "Patient",
              "identifier": {
                "system": "https://seattleflu.org/individual",
                "value": "5ce1ab712df4a18b11e27d66b3a39b49e8065e87f9958c42bb8cb3f28edc8b6c"
              }
            },
            "severity": {
              "text": "Moderate"
            }
          },
          {
            "resourceType": "Condition",
            "id": "cough",
            "code": {
              "coding": [
                {
                  "system": "https://seattleflu.org/symptom",
                  "code": "cough"
                }
              ]
            },
            "onsetDateTime": "2019-09-28T00:00:00-07:00",
            "subject": {
              "type": "Patient",
              "identifier": {
                "system": "https://seattleflu.org/individual",
                "value": "5ce1ab712df4a18b11e27d66b3a39b49e8065e87f9958c42bb8cb3f28edc8b6c"
              }
            },
            "severity": {
              "text": "Mild"
            }
          },
          {
            "resourceType": "Condition",
            "id": "soreThroat",
            "code": {
              "coding": [
                {
                  "system": "https://seattleflu.org/symptom",
                  "code": "soreThroat"
                }
              ]
            },
            "onsetDateTime": "2019-09-28T00:00:00-07:00",
            "subject": {
              "type": "Patient",
              "identifier": {
                "system": "https://seattleflu.org/individual",
                "value": "5ce1ab712df4a18b11e27d66b3a39b49e8065e87f9958c42bb8cb3f28edc8b6c"
              }
            },
            "severity": {
              "text": "Severe"
            }
          },
          {
            "resourceType": "Condition",
            "id": "runnyOrStuffyNose",
            "code": {
              "coding": [
                {
                  "system": "https://seattleflu.org/symptom",
                  "code": "runnyOrStuffyNose"
                }
              ]
            },
            "onsetDateTime": "2019-09-28T00:00:00-07:00",
            "subject": {
              "type": "Patient",
              "identifier": {
                "system": "https://seattleflu.org/individual",
                "value": "5ce1ab712df4a18b11e27d66b3a39b49e8065e87f9958c42bb8cb3f28edc8b6c"
              }
            }
          }
        ],
        "diagnosis": [
          {
            "condition": {
              "reference": "#feelingFeverish"
            }
          },
          {
            "condition": {
              "reference": "#cough"
            }
          },
          {
            "condition": {
              "reference": "#soreThroat"
            }
          },
          {
            "condition": {
              "reference": "#runnyOrStuffyNose"
            }
          }
        ]
      },
      "fullUrl": "urn:uuid:0bac7611-de62-429f-a3c8-a1b85b76a50e"
    },
    {
      "resource": {
        "resourceType": "QuestionnaireResponse",
        "status": "completed",
        "subject": {
          "type": "Patient",
          "reference": "urn:uuid:ef344a3a-930f-4087-93c9-d275246e3b2e"
        },
        "encounter": {
          "type": "Encounter",
          "reference": "urn:uuid:0bac7611-de62-429f-a3c8-a1b85b76a50e"
        },
        "item": [
          {
            "linkId": "race",
            "answer": [
              {
                "valueCoding": {
                  "system": "https://seattleflu.org/race",
                  "code": "white"
                }
              }
            ]
          },
          {
            "linkId": "age",
            "answer": [
              {
                "valueInteger": 39
              }
            ]
          },
          {
            "linkId": "age_months",
            "answer": [
              {
                "valueInteger": 476
              }
            ]
          },
          {
            "linkId": "education",
            "answer": [
              {
                "valueString": "Bachelor's degree"
              }
            ]
          },
          {
            "linkId": "insurance",
            "answer": [
              {
                "valueString": "Prefer not to say"
              }
            ]
          },
          {
            "linkId": "doctor_3e8fae",
            "answer": [
              {
                "valueString": "No"
              }
            ]
          },
          {
            "linkId": "how_hear_sfs",
            "answer": [
              {
                "valueString": "Heard about it from my place of work"
              }
            ]
          },
          {
            "linkId": "house_members_d5f2d9",
            "answer": [
              {
                "valueString": "2 people"
              }
            ]
          },
          {
            "linkId": "where_sick",
            "answer": [
              {
                "valueString": "No"
              }
            ]
          },
          {
            "linkId": "acute_symptom_onset",
            "answer": [
              {
                "valueString": "1.5 - 2 days"
              }
            ]
          }
        ]
      },
      "fullUrl": "urn:uuid:583a09a9-ac54-423b-a9c9-5af8ab214af3"
    },
    {
      "resource": {
        "resourceType": "Specimen",
        "identifier": [
          {
            "system": "https://seattleflu.org/sample",
            "value": "abaddeadbeefcafe"
          }
        ],
        "subject": {
          "type": "Patient",
          "reference": "urn:uuid:ef344a3a-930f-4087-93c9-d275246e3b2e"
        }
      },
      "fullUrl": "urn:uuid:1910c71b-7689-4b28-8172-1091e614407f"
    },
    {
      "resource": {
        "resourceType": "Immunization",
        "status": "not-done",
        "vaccineCode": {
          "coding": [
            {
              "system": "http://snomed.info/sct",
              "code": "46233009",
              "display": "Influenza virus vaccine"
            }
          ]
        },
        "patient": {
          "type": "Patient",
          "reference": "urn:uuid:ef344a3a-930f-4087-93c9-d275246e3b2e"
        },
        "occurrenceString": "No Vaccine"
      },
      "fullUrl": "urn:uuid:f222993f-41d8-4b6c-8ca3-51dca6ce49af"
    },
    {
      "resource": {
        "resourceType": "Location",
        "mode": "instance",
        "identifier": [
          {
            "system": "https://seattleflu.org/site",
            "value": "self-test"
          }
        ],
        "type": [
          {
            "coding": [
              {
                "system": "http://terminology.hl7.org/CodeSystem/v3-RoleCode",
                "code": "HUSCS"
              }
            ]
          }
        ]
      },
      "fullUrl": "urn:uuid:b511d8b6-0a9e-4edc-aad0-0c7e8c0e2b97"
    },
    {
      "resource": {
        "resourceType": "Location",
        "mode": "instance",
        "identifier": [
          {
            "system": "https://seattleflu.org/location",
            "value": "#TODO CENSUS TRACT"
          }
        ],
        "type": [
          {
            "coding": [
              {
                "system": "http://terminology.hl7.org/CodeSystem/v3-RoleCode",
                "code": "PTRES"
              }
            ]
          }
        ]
      },
      "fullUrl": "urn:uuid:26f08b65-9503-40d9-84d4-23a1c3f70d56"
    }
  ]
}
