{
    "resourceType": "Bundle",
    "type": "collection",
    "id": "de5af2bb-393a-473e-bd4b-c9fe1e8dc856",
    "timestamp": "2019-10-08T15:05:53-07:00",
    "entry": [
      {
        "resource": {
          "resourceType": "Encounter",
          "id": "something",
          "status": "finished",
          "period": {
            "start": "datetime"
          },
          "subject": {
            "reference": "patient-1"
          },
          "location": [
            {
              "location": {
                "type": "Location",
                "reference": "site"
              }
            },
            {
              "location": {
                "type": "Location",
                "reference": "residence"
              }
            }
          ],
          "diagnosis": [
            {
              "condition": {
                "reference": "#condition-1"
              }
            },
            {
              "condition": {
                "reference": "#condition-2"
              }
            }
          ],
          "contained": [
            {
              "resourceType": "Condition",
              "id": "condition-1",
              "code": {
                "coding": [
                  {
                    "system": "https://seattleflu.org/symptom",
                    "value": "soreThroat"
                  }
                ]
              },
              "onsetDatetime": "datetime",
              "severity": {
                "text": "mild | moderate | severe"
              },
              "subject": {
                "reference": "patient-1"
              }
            },
            {
              "resourceType": "Condition",
              "id": "condition-2",
              "code": {
                "coding": [
                  {
                    "system": "https://seattleflu.org/symptom",
                    "value": "feelingFeverish"
                  }
                ]
              },
              "onsetDatetime": "datetime",
              "severity": {
                "text": "mild | moderate | severe"
              },
              "subject": {
                "reference": "patient-1"
              }
            }
          ]
        }
      },
      {
        "resource": {
          "resourceType": "Location",
          "id": "site",
          "mode": "instance",
          "type": [
            {
              "system": "http://terminology.hl7.org/CodeSystem/v3-RoleCode",
              "value": "HUSCS"
            }
          ],
          "identifier": [
            {
              "system": "https://seattleflu.org/site",
              "value": "SeattleCenter"
            }
          ]
        }
      },
      {
        "resource": {
          "resourceType": "Location",
          "id": "residence",
          "mode": "instance",
          "type": [
            {
              "system": "http://terminology.hl7.org/CodeSystem/v3-RoleCode",
              "value": "PTRES"
            }
          ],
          "identifier": [
            {
              "system": "https://seattleflu.org/location/address",
              "value": "abaddeadbeefcafe"
            }
          ],
          "partOf": {
            "type": "Location",
            "reference": "residence-tract"
          }
        }
      },
      {
        "resource": {
          "resourceType": "Location",
          "id": "residence-tract",
          "mode": "instance",
          "identifier": [
            {
              "system": "https://seattleflu.org/location/tract",
              "value": "53033005302"
            }
          ]
        }
      },
      {
        "resource": {
          "resourceType": "Patient",
          "id": "patient-1",
          "gender": "male | female | other"
        }
      },
      {
        "resource": {
          "resourceType": "Coverage",
          "status": "active",
          "type": {
            "text": "privateInsurance | government | other | none | preferNotToSay"
          },
          "beneficiary": {
            "reference": "patient-1"
          }
        }
      },
      {
        "resource": {
          "resourceType": "Immunization",
          "status": "completed | not-done",
          "occurenceDateTime": "datetime",
          "vaccineCode": {
            "coding": [
              {
                "system": "http://snomed.info/sct",
                "code": "46233009",
                "display": "Influenza virus vaccine"
              }
            ]
          },
          "patient": {
            "reference": "patient-1"
          }
        }
      },
      {
        "resource": {
          "resourceType": "DiagnosticReport",
          "id": "aaec35df-bba3-4820-b7b5-a5ab28dbac43",
          "status": "final",
          "effectiveDateTime": "2019-10-08T11:07:36-07:00",
          "specimen": [
            {
              "identifier": {
                "system": "https://seattleflu.org",
                "value": "abadcafe"
              }
            }
          ],
          "code": {
            "coding": [
              {
                "system": "http://loinc.org",
                "code": "54244-9",
                "display": "Influenza virus identified in Unspecified specimen"
              }
            ]
          },
          "subject": {
            "reference": "#patient-1"
          },
          "result": [
            {"reference": "#result-1"},
            {"reference": "#result-2"}
          ],
          "contained": [
            {
              "resourceType": "Observation",
              "id": "result-1",
              "status": "final",
              "code": {
                "coding": [
                  {
                    "system": "http://snomed.info/sct",
                    "code": "181000124108",
                    "display": "Influenza A virus present"
                  }
                ]
              },
              "valueBoolean": true
            },
            {
              "resourceType": "Observation",
              "id": "result-2",
              "status": "final",
              "code": {
                "coding": [
                  {
                    "system": "http://snomed.info/sct",
                    "code": "441345003",
                    "display": "Influenza B virus present"
                  }
                ]
              },
              "valueBoolean": false
            }
          ]
        }
      },
      {
        "resource": {
          "resourceType": "Observation",
          "status": "final",
          "code": {
            "coding": [
              {
                "system": "http://loinc.org",
                "code": "89873-4",
                "display": "Unique ID Initial sample"
              }
            ]
          },
          "encounter": {"reference": "something"},
          "subject": {"reference": "patient-1"},
          "specimen": {
            "identifier": {
              "system": "https://seattleflu.org",
              "value": "abadcafe"
            }
          }
        }
      }
    ]
  }
